Kmac Spectrometer Data File
--- Measurement Setting ---
Type: Reference Spectrum
Date: Tue Dec 04 14:57:01 2018
User: (Reserved by KMAC)
Serial: (Reserved by KMAC)
Channel: No. 1
Integration Time: 50
Average: 10
Boxcar: 5
Electrical Dark: (Reserved by KMAC)
Time Normalize: (Reserved by KMAC)
Dual-beam: (Reserved by KMAC)
Reference Ch: (Reserved by KMAC)
--- Measurement Data ---
    0        341.9     -9.66667
    1      342.363     -9.17143
    2      342.825      -9.1125
    3      343.287     -8.57778
    4       343.75        -8.05
    5      344.212     -7.49091
    6      344.674     -6.86364
    7      345.136     -6.58182
    8      345.598     -6.36364
    9       346.06     -5.78182
   10      346.522     -5.43636
   11      346.984     -5.74545
   12      347.445         -5.7
   13      347.907     -5.71818
   14      348.368     -6.03636
   15       348.83     -6.23636
   16      349.291     -6.61818
   17      349.752     -7.07273
   18      350.213     -7.60909
   19      350.674     -7.05455
   20      351.135     -5.64545
   21      351.596     -3.98182
   22      352.057     -2.51818
   23      352.517     -1.72727
   24      352.978     -1.30909
   25      353.439     -1.31818
   26      353.899     -1.66364
   27      354.359     -1.94545
   28       354.82     -1.98182
   29       355.28     -1.75455
   30       355.74           -2
   31        356.2     -2.83636
   32       356.66     -3.96364
   33       357.12           -5
   34       357.58         -5.6
   35      358.039     -5.56364
   36      358.499     -5.16364
   37      358.958     -4.74545
   38      359.418     -4.60909
   39      359.877     -4.57273
   40      360.336     -4.63636
   41      360.796     -5.36364
   42      361.255     -5.42727
   43      361.714     -4.57273
   44      362.173     -4.45455
   45      362.631     -4.88182
   46       363.09     -5.44545
   47      363.549     -6.34545
   48      364.007         -7.1
   49      364.466         -7.5
   50      364.924     -8.25455
   51      365.383     -8.96364
   52      365.841     -9.23636
   53      366.299     -10.4455
   54      366.757     -12.3636
   55      367.215     -13.2636
   56      367.673     -13.8636
   57      368.131     -14.2727
   58      368.588        -14.4
   59      369.046     -14.4182
   60      369.504     -14.3182
   61      369.961     -13.8273
   62      370.418     -12.9364
   63      370.876     -12.5091
   64      371.333        -12.1
   65       371.79     -11.5455
   66      372.247     -11.3909
   67      372.704     -10.9091
   68      373.161     -10.5182
   69      373.618     -10.1545
   70      374.074     -9.79091
   71      374.531     -9.92727
   72      374.987     -10.1818
   73      375.444     -10.6545
   74        375.9     -10.7727
   75      376.356     -10.1545
   76      376.812     -9.39091
   77      377.269     -9.04545
   78      377.725     -9.30909
   79       378.18     -9.49091
   80      378.636     -9.14545
   81      379.092     -9.00909
   82      379.548     -8.70909
   83      380.003     -8.02727
   84      380.459     -7.52727
   85      380.914     -7.12727
   86      381.369     -7.12727
   87      381.825     -7.20909
   88       382.28     -6.71818
   89      382.735         -4.9
   90       383.19     -2.37273
   91      383.645         -0.8
   92      384.099     0.363636
   93      384.554      1.29091
   94      385.009          1.5
   95      385.463      1.61818
   96      385.918      1.40909
   97      386.372      1.00909
   98      386.826     0.263636
   99       387.28    -0.345455
  100      387.734     -1.54545
  101      388.188     -3.51818
  102      388.642         -5.4
  103      389.096     -7.25455
  104       389.55         -8.5
  105      390.004     -9.20909
  106      390.457     -9.43636
  107      390.911     -9.04545
  108      391.364     -8.90909
  109      391.817     -9.16364
  110       392.27     -9.39091
  111      392.724     -9.56364
  112      393.177     -9.71818
  113       393.63     -9.82727
  114      394.082     -9.95455
  115      394.535     -10.4455
  116      394.988     -11.0455
  117       395.44     -11.3545
  118      395.893     -10.8818
  119      396.345     -10.2273
  120      396.798     -8.75455
  121       397.25     -6.94545
  122      397.702     -6.18182
  123      398.154     -5.94545
  124      398.606     -5.48182
  125      399.058     -4.71818
  126       399.51         -3.7
  127      399.962         -2.8
  128      400.413         -2.6
  129      400.865     -3.23636
  130      401.316     -3.96364
  131      401.768     -5.04545
  132      402.219     -6.60909
  133       402.67     -7.64545
  134      403.121     -8.18182
  135      403.572     -8.44545
  136      404.023     -8.89091
  137      404.474     -9.72727
  138      404.925     -10.2636
  139      405.375     -10.4364
  140      405.826     -10.2909
  141      406.276     -10.0545
  142      406.727     -10.2909
  143      407.177     -10.4909
  144      407.627     -10.3182
  145      408.078     -10.1727
  146      408.528     -10.2545
  147      408.978     -9.66364
  148      409.427     -8.11818
  149      409.877     -7.04545
  150      410.327     -6.52727
  151      410.777     -5.45455
  152      411.226     -4.54545
  153      411.675     -3.30909
  154      412.125     -2.01818
  155      412.574     -1.75455
  156      413.023     -1.62727
  157      413.472    -0.954545
  158      413.921         -0.8
  159       414.37     -1.78182
  160      414.819     -2.63636
  161      415.268     -3.23636
  162      415.716     -4.73636
  163      416.165     -6.10909
  164      416.613     -7.33636
  165      417.062     -8.90909
  166       417.51     -10.3545
  167      417.958     -11.4091
  168      418.406     -12.2909
  169      418.854     -12.7455
  170      419.302     -12.3182
  171       419.75     -11.7636
  172      420.198     -11.3182
  173      420.645     -11.2818
  174      421.093     -11.8909
  175       421.54     -12.8545
  176      421.988     -13.4818
  177      422.435     -13.2455
  178      422.882     -12.8182
  179      423.329        -12.3
  180      423.776     -11.7364
  181      424.223     -11.6273
  182       424.67     -11.8273
  183      425.117     -11.8182
  184      425.564     -11.2364
  185       426.01     -10.2545
  186      426.457     -9.44545
  187      426.903     -8.55455
  188      427.349     -7.44545
  189      427.795     -6.67273
  190      428.242     -6.41818
  191      428.688     -6.35455
  192      429.134     -6.51818
  193      429.579     -6.68182
  194      430.025         -7.1
  195      430.471     -7.46364
  196      430.916     -7.53636
  197      431.362         -6.9
  198      431.807     -6.06364
  199      432.253     -5.98182
  200      432.698     -6.28182
  201      433.143     -7.13636
  202      433.588     -8.01818
  203      434.033     -8.46364
  204      434.478     -8.72727
  205      434.923     -8.62727
  206      435.367     -8.39091
  207      435.812     -8.13636
  208      436.256     -8.09091
  209      436.701     -8.77273
  210      437.145     -9.43636
  211      437.589     -9.96364
  212      438.034     -10.2273
  213      438.478     -10.5909
  214      438.922          -11
  215      439.365        -11.2
  216      439.809     -11.9455
  217      440.253     -12.8091
  218      440.697     -13.3909
  219       441.14     -13.9455
  220      441.583     -14.0364
  221      442.027     -13.9273
  222       442.47     -13.7455
  223      442.913     -13.1636
  224      443.356     -12.2364
  225      443.799     -11.4818
  226      444.242     -11.1545
  227      444.685     -10.6364
  228      445.128     -10.5091
  229       445.57     -10.5545
  230      446.013     -9.97273
  231      446.455     -9.45455
  232      446.897     -8.92727
  233       447.34     -8.17273
  234      447.782     -7.39091
  235      448.224     -6.74545
  236      448.666     -6.14545
  237      449.108     -5.59091
  238      449.549     -4.92727
  239      449.991         -3.6
  240      450.433     -2.73636
  241      450.874     -3.09091
  242      451.316         -3.3
  243      451.757     -3.26364
  244      452.198     -3.64545
  245      452.639     -4.10909
  246       453.08     -4.83636
  247      453.521     -5.40909
  248      453.962     -5.40909
  249      454.403     -5.77273
  250      454.844     -6.82727
  251      455.284         -7.4
  252      455.725     -7.14545
  253      456.165     -6.90909
  254      456.606     -6.79091
  255      457.046     -6.46364
  256      457.486     -6.58182
  257      457.926     -6.99091
  258      458.366     -7.59091
  259      458.806     -7.97273
  260      459.246     -7.65455
  261      459.685     -6.65455
  262      460.125     -5.88182
  263      460.564     -5.67273
  264      461.004     -5.95455
  265      461.443     -6.74545
  266      461.882         -7.5
  267      462.321     -7.72727
  268       462.76     -6.90909
  269      463.199     -6.02727
  270      463.638     -5.71818
  271      464.077     -5.69091
  272      464.516         -6.5
  273      464.954           -7
  274      465.393     -6.29091
  275      465.831     -4.90909
  276      466.269         -3.9
  277      466.708     -3.44545
  278      467.146     -3.64545
  279      467.584     -4.43636
  280      468.022     -4.90909
  281      468.459     -5.30909
  282      468.897     -5.93636
  283      469.335     -5.62727
  284      469.772         -5.7
  285       470.21     -6.92727
  286      470.647     -8.16364
  287      471.084     -8.53636
  288      471.522     -8.68182
  289      471.959     -8.94545
  290      472.396     -9.32727
  291      472.833     -10.2727
  292      473.269     -10.0364
  293      473.706         -8.6
  294      474.143     -7.94545
  295      474.579     -7.69091
  296      475.016     -7.40909
  297      475.452         -7.4
  298      475.888     -7.28182
  299      476.325         -6.5
  300      476.761     -5.31818
  301      477.197     -4.33636
  302      477.633     -2.65455
  303      478.068     -2.17273
  304      478.504     -3.42727
  305       478.94     -4.87273
  306      479.375     -5.53636
  307      479.811     -5.77273
  308      480.246     -6.03636
  309      480.681     -6.35455
  310      481.116     -6.89091
  311      481.551     -7.12727
  312      481.986     -6.93636
  313      482.421     -7.22727
  314      482.856     -7.67273
  315      483.291     -7.53636
  316      483.725     -7.48182
  317       484.16     -8.19091
  318      484.594     -8.99091
  319      485.028     -9.35455
  320      485.462     -9.56364
  321      485.897     -9.88182
  322      486.331     -10.5818
  323      486.765     -10.7182
  324      487.198        -11.1
  325      487.632     -12.2091
  326      488.066     -12.6364
  327      488.499     -12.2727
  328      488.933     -11.9727
  329      489.366     -12.0182
  330      489.799     -12.5091
  331      490.233     -13.1091
  332      490.666     -13.3091
  333      491.099     -13.2273
  334      491.532     -13.5091
  335      491.964     -13.1636
  336      492.397     -11.7182
  337       492.83     -10.7091
  338      493.262     -10.4545
  339      493.695     -9.98182
  340      494.127     -9.47273
  341      494.559     -8.74545
  342      494.991     -7.93636
  343      495.423     -6.72727
  344      495.855     -5.34545
  345      496.287     -5.15455
  346      496.719     -5.84545
  347      497.151     -7.05455
  348      497.582     -8.19091
  349      498.014     -8.69091
  350      498.445     -8.94545
  351      498.876     -8.62727
  352      499.307     -8.40909
  353      499.739     -8.77273
  354       500.17     -10.1818
  355        500.6     -11.4545
  356      501.031     -11.3273
  357      501.462     -10.8727
  358      501.893     -10.0636
  359      502.323     -9.40909
  360      502.754     -9.23636
  361      503.184     -8.70909
  362      503.614     -8.58182
  363      504.044     -8.89091
  364      504.474     -8.68182
  365      504.904     -7.70909
  366      505.334     -7.40909
  367      505.764     -8.21818
  368      506.194     -8.95455
  369      506.623     -10.0636
  370      507.053     -11.5636
  371      507.482     -12.3727
  372      507.911     -12.7455
  373      508.341     -13.0455
  374       508.77     -13.3455
  375      509.199        -13.6
  376      509.628     -13.8182
  377      510.056     -14.0182
  378      510.485     -13.8909
  379      510.914     -13.5455
  380      511.342     -12.8818
  381      511.771     -11.6364
  382      512.199     -10.7455
  383      512.627     -10.7909
  384      513.055     -10.6727
  385      513.484     -9.81818
  386      513.912     -9.07273
  387      514.339     -9.16364
  388      514.767     -9.58182
  389      515.195     -9.43636
  390      515.622     -8.77273
  391       516.05         -8.2
  392      516.477     -8.10909
  393      516.905     -7.85455
  394      517.332     -7.17273
  395      517.759         -7.1
  396      518.186     -8.07273
  397      518.613     -8.56364
  398       519.04     -8.34545
  399      519.466     -8.24545
  400      519.893     -8.89091
  401      520.319     -10.0455
  402      520.746     -10.6182
  403      521.172     -10.9364
  404      521.598     -12.3727
  405      522.025     -13.9636
  406      522.451     -14.9545
  407      522.877     -15.5182
  408      523.302     -16.2545
  409      523.728     -17.0545
  410      524.154     -17.2273
  411      524.579     -16.7364
  412      525.005          -16
  413       525.43     -15.7364
  414      525.855        -15.7
  415      526.281     -14.7636
  416      526.706     -13.7364
  417      527.131     -12.8818
  418      527.556     -11.8455
  419       527.98        -11.3
  420      528.405     -11.1091
  421       528.83     -11.0636
  422      529.254     -10.9909
  423      529.679     -10.2909
  424      530.103     -9.28182
  425      530.527     -8.12727
  426      530.951     -7.24545
  427      531.375     -7.03636
  428      531.799     -7.04545
  429      532.223     -6.89091
  430      532.647     -6.25455
  431       533.07     -5.78182
  432      533.494     -5.46364
  433      533.917     -5.19091
  434      534.341     -5.55455
  435      534.764     -6.02727
  436      535.187     -6.12727
  437       535.61     -5.88182
  438      536.033     -5.29091
  439      536.456         -4.6
  440      536.879     -4.26364
  441      537.301     -4.42727
  442      537.724     -4.29091
  443      538.146     -3.75455
  444      538.569     -3.63636
  445      538.991     -3.68182
  446      539.413     -4.16364
  447      539.835     -5.11818
  448      540.257     -6.26364
  449      540.679     -7.82727
  450      541.101     -9.38182
  451      541.522     -10.2364
  452      541.944     -10.5818
  453      542.366     -11.0364
  454      542.787     -11.7727
  455      543.208     -12.3455
  456      543.629     -13.1636
  457      544.051     -13.5545
  458      544.472     -12.6364
  459      544.892     -11.1182
  460      545.313         -9.7
  461      545.734     -8.17273
  462      546.155     -7.14545
  463      546.575     -6.87273
  464      546.995         -6.5
  465      547.416     -5.69091
  466      547.836     -4.78182
  467      548.256         -4.1
  468      548.676     -4.03636
  469      549.096     -4.77273
  470      549.516     -6.15455
  471      549.936     -7.36364
  472      550.355     -8.48182
  473      550.775     -9.30909
  474      551.194     -9.70909
  475      551.614     -9.81818
  476      552.033     -10.0545
  477      552.452        -10.5
  478      552.871     -10.4545
  479       553.29     -10.1455
  480      553.709     -10.6545
  481      554.127     -11.3273
  482      554.546     -11.3545
  483      554.965     -11.5636
  484      555.383     -11.8273
  485      555.801     -11.3091
  486       556.22     -10.6909
  487      556.638     -10.4636
  488      557.056        -10.4
  489      557.474     -10.5364
  490      557.892     -10.6545
  491      558.309     -10.4818
  492      558.727     -9.91818
  493      559.145     -9.47273
  494      559.562           -9
  495       559.98     -8.28182
  496      560.397     -8.01818
  497      560.814     -8.02727
  498      561.231     -7.70909
  499      561.648     -7.73636
  500      562.065     -8.18182
  501      562.482     -8.96364
  502      562.898     -9.54545
  503      563.315     -9.99091
  504      563.731     -10.5364
  505      564.148     -11.0091
  506      564.564     -11.8091
  507       564.98     -13.0455
  508      565.396     -14.2455
  509      565.812     -15.3182
  510      566.228     -16.1273
  511      566.644     -16.5818
  512       567.06     -16.3091
  513      567.475     -15.6182
  514      567.891     -15.2364
  515      568.306     -14.8091
  516      568.721     -14.1273
  517      569.136     -13.5818
  518      569.552     -12.8909
  519      569.967     -12.0455
  520      570.381     -11.1727
  521      570.796     -9.61818
  522      571.211     -7.79091
  523      571.625     -6.66364
  524       572.04     -6.21818
  525      572.454     -5.68182
  526      572.869     -5.06364
  527      573.283     -4.70909
  528      573.697     -4.11818
  529      574.111     -3.62727
  530      574.525     -3.52727
  531      574.939     -3.54545
  532      575.352     -4.43636
  533      575.766     -5.13636
  534      576.179     -4.42727
  535      576.593     -3.84545
  536      577.006     -3.66364
  537      577.419     -3.13636
  538      577.832     -2.71818
  539      578.245     -3.16364
  540      578.658     -4.00909
  541      579.071     -5.28182
  542      579.484     -6.93636
  543      579.896         -7.6
  544      580.309     -7.64545
  545      580.721     -8.51818
  546      581.133     -9.52727
  547      581.546        -10.1
  548      581.958     -11.1455
  549       582.37     -12.4182
  550      582.781        -13.4
  551      583.193     -13.9182
  552      583.605     -13.9818
  553      584.017     -13.8364
  554      584.428     -13.5636
  555      584.839     -13.8909
  556      585.251          -14
  557      585.662     -13.2727
  558      586.073     -12.7636
  559      586.484        -12.1
  560      586.895     -11.1182
  561      587.306     -10.1909
  562      587.716         -9.8
  563      588.127     -9.43636
  564      588.537     -8.78182
  565      588.948     -8.86364
  566      589.358     -9.30909
  567      589.768     -9.96364
  568      590.178     -10.5273
  569      590.588     -10.6364
  570      590.998     -10.8273
  571      591.408     -11.3273
  572      591.817     -11.2909
  573      592.227     -10.6545
  574      592.636     -10.0455
  575      593.046     -9.83636
  576      593.455     -9.73636
  577      593.864     -9.61818
  578      594.273     -9.39091
  579      594.682     -9.27273
  580      595.091     -8.97273
  581        595.5     -8.47273
  582      595.908           -8
  583      596.317     -7.47273
  584      596.725     -6.74545
  585      597.134     -6.43636
  586      597.542     -6.31818
  587       597.95     -5.60909
  588      598.358     -4.61818
  589      598.766     -4.25455
  590      599.174         -4.1
  591      599.582     -4.20909
  592      599.989     -4.38182
  593      600.397     -3.82727
  594      600.804     -3.75455
  595      601.212     -3.75455
  596      601.619     -3.35455
  597      602.026     -3.14545
  598      602.433     -2.95455
  599       602.84     0.945455
  600      603.247      6.39091
  601      603.654      8.58182
  602       604.06      9.05455
  603      604.467      8.74545
  604      604.873      7.90909
  605      605.279          6.9
  606      605.686      5.49091
  607      606.092      3.93636
  608      606.498      2.99091
  609      606.904      1.93636
  610      607.309     -2.75455
  611      607.715     -8.72727
  612      608.121        -11.5
  613      608.526     -12.9091
  614      608.932     -14.2091
  615      609.337     -14.9455
  616      609.742     -12.8455
  617      610.147     -9.73636
  618      610.552     -8.09091
  619      610.957     -6.61818
  620      611.362     -5.12727
  621      611.766     -4.59091
  622      612.171     -4.23636
  623      612.576     -3.61818
  624       612.98     -2.78182
  625      613.384     -1.02727
  626      613.788     0.363636
  627      614.192     -1.25455
  628      614.596     -4.04545
  629          615     -4.87273
  630      615.404     -5.11818
  631      615.808     -5.91818
  632      616.211     -6.31818
  633      616.615     -6.18182
  634      617.018     -6.42727
  635      617.421     -7.02727
  636      617.824     -7.93636
  637      618.227     -8.68182
  638       618.63     -9.01818
  639      619.033     -9.26364
  640      619.436     -9.85455
  641      619.838     -10.9455
  642      620.241     -11.3727
  643      620.643     -10.9091
  644      621.046     -10.3182
  645      621.448     -9.61818
  646       621.85     -8.54545
  647      622.252     -7.66364
  648      622.654     -7.57273
  649      623.056     -6.99091
  650      623.457     -5.76364
  651      623.859         -5.2
  652       624.26     -4.95455
  653      624.662     -4.75455
  654      625.063     -5.09091
  655      625.464     -5.99091
  656      625.865     -7.05455
  657      626.266     -8.04545
  658      626.667     -9.02727
  659      627.068     -8.94545
  660      627.468     -8.82727
  661      627.869     -9.26364
  662      628.269     -9.03636
  663       628.67     -8.27273
  664       629.07     -7.96364
  665       629.47     -8.24545
  666       629.87     -8.37273
  667       630.27     -8.11818
  668       630.67     -7.89091
  669       631.07     -7.76364
  670      631.469     -8.24545
  671      631.869     -8.51818
  672      632.268     -8.22727
  673      632.667     -8.05455
  674      633.067     -8.13636
  675      633.466     -8.20909
  676      633.865     -7.99091
  677      634.264     -7.83636
  678      634.662     -8.05455
  679      635.061         -8.2
  680       635.46     -7.91818
  681      635.858         -7.9
  682      636.256     -8.32727
  683      636.655     -8.99091
  684      637.053     -9.94545
  685      637.451        -10.9
  686      637.849     -11.4727
  687      638.247     -11.7273
  688      638.644     -12.0909
  689      639.042     -12.1909
  690       639.44     -11.9818
  691      639.837     -11.8182
  692      640.234     -10.8909
  693      640.631     -9.85455
  694      641.029         -9.1
  695      641.426     -7.89091
  696      641.822     -6.87273
  697      642.219         -6.4
  698      642.616     -6.42727
  699      643.013     -5.74545
  700      643.409     -4.96364
  701      643.805     -5.14545
  702      644.202           -6
  703      644.598     -7.15455
  704      644.994     -8.24545
  705       645.39     -9.33636
  706      645.786     -10.1182
  707      646.181     -10.4364
  708      646.577     -10.8273
  709      646.973     -11.1636
  710      647.368     -11.8727
  711      647.763     -12.5182
  712      648.158     -12.6364
  713      648.554     -12.4909
  714      648.949     -12.4636
  715      649.344     -12.5727
  716      649.738     -12.5364
  717      650.133     -12.6636
  718      650.528     -12.8091
  719      650.922     -12.6818
  720      651.316        -12.6
  721      651.711     -12.1455
  722      652.105     -11.2091
  723      652.499     -10.3636
  724      652.893     -9.68182
  725      653.287     -9.38182
  726       653.68     -8.69091
  727      654.074     -7.48182
  728      654.468         -6.9
  729      654.861         -6.9
  730      655.254     -6.56364
  731      655.648     -5.77273
  732      656.041     -5.75455
  733      656.434     -6.45455
  734      656.827     -6.85455
  735      657.219     -6.69091
  736      657.612     -6.23636
  737      658.005     -6.53636
  738      658.397     -6.79091
  739      658.789     -6.18182
  740      659.182     -5.60909
  741      659.574     -5.37273
  742      659.966     -5.44545
  743      660.358     -5.93636
  744       660.75     -5.91818
  745      661.141         -5.7
  746      661.533           -6
  747      661.924     -6.23636
  748      662.316         -6.4
  749      662.707     -7.38182
  750      663.098     -8.76364
  751      663.489         -9.5
  752       663.88     -9.41818
  753      664.271     -8.98182
  754      664.662     -7.97273
  755      665.053     -7.57273
  756      665.443     -7.91818
  757      665.834     -7.90909
  758      666.224           -8
  759      666.614     -8.24545
  760      667.004     -8.67273
  761      667.394     -9.18182
  762      667.784     -9.80909
  763      668.174        -11.2
  764      668.564     -12.8909
  765      668.953     -14.1273
  766      669.343        -14.9
  767      669.732     -15.4455
  768      670.122     -16.0182
  769      670.511        -16.6
  770        670.9     -16.9455
  771      671.289     -16.7545
  772      671.678     -16.3182
  773      672.066     -15.3727
  774      672.455     -14.1636
  775      672.843     -13.2727
  776      673.232     -12.6545
  777       673.62     -11.9091
  778      674.008     -11.0182
  779      674.396     -10.3364
  780      674.784     -9.00909
  781      675.172     -7.59091
  782       675.56     -6.68182
  783      675.948     -6.55455
  784      676.335     -7.43636
  785      676.723     -8.64545
  786       677.11     -9.49091
  787      677.497     -9.90909
  788      677.884     -10.6182
  789      678.271     -11.8455
  790      678.658     -12.8364
  791      679.045     -13.8364
  792      679.432     -14.7909
  793      679.818     -15.3182
  794      680.205     -15.4364
  795      680.591     -15.0364
  796      680.978     -14.2818
  797      681.364     -13.3909
  798       681.75     -12.6636
  799      682.136     -11.6636
  800      682.522     -10.2364
  801      682.907         -9.2
  802      683.293     -8.47273
  803      683.678     -7.55455
  804      684.064         -6.7
  805      684.449     -6.03636
  806      684.834     -6.01818
  807      685.219     -6.33636
  808      685.604     -6.08182
  809      685.989     -5.61818
  810      686.374     -5.68182
  811      686.759     -5.55455
  812      687.143     -5.14545
  813      687.528     -5.37273
  814      687.912     -6.05455
  815      688.296     -6.45455
  816       688.68         -6.2
  817      689.064     -5.78182
  818      689.448     -5.64545
  819      689.832     -6.06364
  820      690.216     -7.09091
  821      690.599     -8.29091
  822      690.983         -9.5
  823      691.366     -10.5636
  824      691.749     -11.3818
  825      692.132     -11.7818
  826      692.515        -11.8
  827      692.898     -11.6545
  828      693.281     -11.3636
  829      693.664     -10.8909
  830      694.046     -10.6091
  831      694.429     -10.3273
  832      694.811     -9.66364
  833      695.193     -8.95455
  834      695.575     -8.59091
  835      695.958     -7.93636
  836      696.339     -7.45455
  837      696.721     -7.87273
  838      697.103     -9.07273
  839      697.485     -9.96364
  840      697.866     -10.2273
  841      698.247     -10.5273
  842      698.629     -11.0818
  843       699.01     -11.3727
  844      699.391     -11.6727
  845      699.772     -11.9727
  846      700.153     -12.0091
  847      700.533     -11.6182
  848      700.914     -10.8818
  849      701.295     -9.51818
  850      701.675     -7.79091
  851      702.055     -6.24545
  852      702.435     -5.22727
  853      702.816     -4.32727
  854      703.195         -4.1
  855      703.575     -4.81818
  856      703.955     -5.08182
  857      704.335     -5.25455
  858      704.714     -6.50909
  859      705.094     -8.39091
  860      705.473     -10.4909
  861      705.852     -13.0273
  862      706.231        -15.8
  863       706.61     -17.7364
  864      706.989     -18.7818
  865      707.368     -18.9727
  866      707.746        -18.4
  867      708.125     -17.6727
  868      708.503     -17.3455
  869      708.882     -16.9545
  870       709.26     -15.8909
  871      709.638     -14.6455
  872      710.016     -13.6091
  873      710.394     -12.5727
  874      710.772        -11.9
  875      711.149     -11.8182
  876      711.527     -11.9909
  877      711.904     -12.0455
  878      712.282     -12.7182
  879      712.659     -13.0091
  880      713.036     -12.4818
  881      713.413     -12.2545
  882       713.79     -12.1727
  883      714.167     -11.2909
  884      714.543        -10.1
  885       714.92     -9.47273
  886      715.296     -9.14545
  887      715.673     -9.23636
  888      716.049     -9.18182
  889      716.425     -8.82727
  890      716.801     -8.73636
  891      717.177     -8.66364
  892      717.553     -8.35455
  893      717.928     -8.01818
  894      718.304     -8.52727
  895      718.679     -9.58182
  896      719.055     -9.96364
  897       719.43     -9.69091
  898      719.805     -9.18182
  899       720.18     -8.75455
  900      720.555     -7.94545
  901       720.93     -7.09091
  902      721.304     -6.74545
  903      721.679     -6.81818
  904      722.053         -7.1
  905      722.428         -7.4
  906      722.802     -8.01818
  907      723.176     -8.43636
  908       723.55     -8.23636
  909      723.924     -7.84545
  910      724.298     -7.13636
  911      724.671     -6.30909
  912      725.045     -5.99091
  913      725.418     -5.56364
  914      725.792     -5.03636
  915      726.165     -4.14545
  916      726.538         -3.4
  917      726.911     -2.53636
  918      727.284     -1.54545
  919      727.657     -1.58182
  920      728.029     -2.24545
  921      728.402     -3.35455
  922      728.774     -4.44545
  923      729.147     -5.02727
  924      729.519     -5.57273
  925      729.891     -5.32727
  926      730.263     -5.37273
  927      730.635     -5.40909
  928      731.007     -5.07273
  929      731.378     -4.42727
  930       731.75     -3.06364
  931      732.121     -1.88182
  932      732.493     -1.08182
  933      732.864    -0.772727
  934      733.235    -0.381818
  935      733.606     0.318182
  936      733.977     0.163636
  937      734.348    -0.181818
  938      734.718    -0.463636
  939      735.089     -1.07273
  940      735.459     -2.26364
  941       735.83     -4.05455
  942        736.2     -5.13636
  943       736.57     -5.65455
  944       736.94     -6.48182
  945       737.31     -7.60909
  946      737.679     -9.22727
  947      738.049     -10.7091
  948      738.419     -11.1182
  949      738.788     -10.5273
  950      739.157         -9.7
  951      739.527         -8.7
  952      739.896     -7.42727
  953      740.265     -6.76364
  954      740.634     -6.52727
  955      741.002     -6.16364
  956      741.371     -5.57273
  957      741.739     -4.71818
  958      742.108     -4.05455
  959      742.476         -4.2
  960      742.844         -4.9
  961      743.212     -4.78182
  962       743.58     -4.51818
  963      743.948     -4.66364
  964      744.316     -4.46364
  965      744.684     -4.49091
  966      745.051     -4.41818
  967      745.418     -4.34545
  968      745.786         -4.4
  969      746.153         -4.5
  970       746.52     -4.62727
  971      746.887     -4.65455
  972      747.254     -5.68182
  973       747.62     -6.92727
  974      747.987     -7.93636
  975      748.354     -9.13636
  976       748.72          -10
  977      749.086     -10.5273
  978      749.452     -11.0273
  979      749.818     -11.2455
  980      750.184     -10.8364
  981       750.55     -10.6727
  982      750.916     -10.8273
  983      751.281     -10.2545
  984      751.647     -9.56364
  985      752.012     -8.81818
  986      752.377     -8.26364
  987      752.743     -8.32727
  988      753.108     -8.24545
  989      753.473           -8
  990      753.837     -8.33636
  991      754.202     -8.82727
  992      754.567     -8.80909
  993      754.931     -8.46364
  994      755.295     -8.43636
  995       755.66     -8.62727
  996      756.024     -9.13636
  997      756.388     -9.00909
  998      756.752     -7.40909
  999      757.115     -6.34545
 1000      757.479     -5.91818
 1001      757.843     -5.21818
 1002      758.206     -4.90909
 1003      758.569     -4.92727
 1004      758.932     -5.39091
 1005      759.296     -5.87273
 1006      759.659     -5.90909
 1007      760.021     -5.25455
 1008      760.384     -5.30909
 1009      760.747     -6.92727
 1010      761.109     -8.36364
 1011      761.472     -9.12727
 1012      761.834     -9.78182
 1013      762.196     -10.1545
 1014      762.558     -10.3909
 1015       762.92     -10.5091
 1016      763.282     -11.1091
 1017      763.644     -12.2182
 1018      764.005     -13.4545
 1019      764.367     -14.4364
 1020      764.728     -14.5455
 1021      765.089     -14.3909
 1022      765.451     -14.7636
 1023      765.812     -14.7455
 1024      766.172     -14.4091
 1025      766.533     -14.4455
 1026      766.894     -14.7727
 1027      767.255     -14.6182
 1028      767.615     -14.3727
 1029      767.975     -14.4273
 1030      768.336     -14.0727
 1031      768.696     -13.2182
 1032      769.056     -12.3182
 1033      769.416     -11.4636
 1034      769.775     -10.8818
 1035      770.135        -10.4
 1036      770.494     -9.76364
 1037      770.854     -9.07273
 1038      771.213     -8.51818
 1039      771.572     -7.72727
 1040      771.931     -6.71818
 1041       772.29     -6.08182
 1042      772.649         -6.2
 1043      773.008     -6.93636
 1044      773.367     -7.57273
 1045      773.725     -8.10909
 1046      774.083     -8.33636
 1047      774.442     -7.86364
 1048        774.8     -6.74545
 1049      775.158     -5.17273
 1050      775.516     -4.48182
 1051      775.874     -4.32727
 1052      776.231     -3.78182
 1053      776.589     -3.60909
 1054      776.946         -3.7
 1055      777.304     -3.42727
 1056      777.661     -2.78182
 1057      778.018     -2.92727
 1058      778.375     -3.89091
 1059      778.732     -5.07273
 1060      779.089     -6.60909
 1061      779.445     -7.30909
 1062      779.802     -7.67273
 1063      780.158     -8.31818
 1064      780.515     -8.31818
 1065      780.871     -7.30909
 1066      781.227     -6.41818
 1067      781.583     -6.17273
 1068      781.939     -6.30909
 1069      782.294     -6.94545
 1070       782.65     -7.98182
 1071      783.006     -8.93636
 1072      783.361     -9.88182
 1073      783.716     -10.4273
 1074      784.071     -10.4182
 1075      784.426        -10.3
 1076      784.781     -10.6091
 1077      785.136     -11.5818
 1078      785.491     -12.6909
 1079      785.845     -12.6455
 1080        786.2        -11.3
 1081      786.554     -9.68182
 1082      786.908     -8.75455
 1083      787.262     -8.50909
 1084      787.616     -8.70909
 1085       787.97     -8.87273
 1086      788.324     -8.97273
 1087      788.678     -9.27273
 1088      789.031     -9.12727
 1089      789.385     -8.63636
 1090      789.738     -8.53636
 1091      790.091     -9.14545
 1092      790.444     -9.90909
 1093      790.797     -9.79091
 1094       791.15         -9.1
 1095      791.503     -8.32727
 1096      791.855     -7.76364
 1097      792.208     -7.59091
 1098       792.56     -7.47273
 1099      792.912     -6.98182
 1100      793.264     -5.98182
 1101      793.616     -4.76364
 1102      793.968         -3.9
 1103       794.32     -3.71818
 1104      794.672     -3.93636
 1105      795.023     -4.34545
 1106      795.375     -4.91818
 1107      795.726     -5.69091
 1108      796.077     -6.59091
 1109      796.428     -7.40909
 1110      796.779     -8.20909
 1111       797.13         -9.5
 1112      797.481     -11.4091
 1113      797.831        -12.7
 1114      798.182     -12.9818
 1115      798.532     -12.6182
 1116      798.882     -11.5273
 1117      799.232     -10.6091
 1118      799.582     -10.2091
 1119      799.932     -9.30909
 1120      800.282     -8.02727
 1121      800.632     -7.64545
 1122      800.981         -7.6
 1123      801.331     -7.01818
 1124       801.68     -6.41818
 1125      802.029     -6.09091
 1126      802.378     -6.39091
 1127      802.727     -7.01818
 1128      803.076     -7.36364
 1129      803.425     -7.48182
 1130      803.773           -8
 1131      804.122     -8.98182
 1132       804.47     -9.54545
 1133      804.818     -9.73636
 1134      805.167     -9.81818
 1135      805.515     -9.62727
 1136      805.862     -9.20909
 1137       806.21     -8.76364
 1138      806.558     -8.74545
 1139      806.905     -8.66364
 1140      807.253     -8.08182
 1141        807.6     -7.54545
 1142      807.947         -6.8
 1143      808.294     -5.57273
 1144      808.641     -4.31818
 1145      808.988     -3.34545
 1146      809.335     -3.04545
 1147      809.682     -3.15455
 1148      810.028     -3.55455
 1149      810.374     -3.44545
 1150      810.721     -3.01818
 1151      811.067     -3.32727
 1152      811.413     -3.98182
 1153      811.759     -4.91818
 1154      812.104     -5.87273
 1155       812.45     -6.64545
 1156      812.796     -7.37273
 1157      813.141     -7.73636
 1158      813.486     -8.04545
 1159      813.831     -8.06364
 1160      814.176     -8.27273
 1161      814.521     -9.20909
 1162      814.866     -9.85455
 1163      815.211     -9.41818
 1164      815.555     -8.68182
 1165        815.9     -8.63636
 1166      816.244     -8.91818
 1167      816.589     -8.95455
 1168      816.933         -8.9
 1169      817.277     -8.52727
 1170       817.62     -8.42727
 1171      817.964           -9
 1172      818.308     -9.51818
 1173      818.651        -10.1
 1174      818.995     -11.2455
 1175      819.338     -12.3727
 1176      819.681     -13.1091
 1177      820.024     -13.7364
 1178      820.367     -14.3182
 1179       820.71     -15.0091
 1180      821.053     -15.9364
 1181      821.395     -16.1909
 1182      821.738     -15.9364
 1183       822.08     -15.2273
 1184      822.422     -13.8636
 1185      822.764     -12.6727
 1186      823.106     -11.6364
 1187      823.448     -10.6182
 1188       823.79     -9.89091
 1189      824.131     -9.75455
 1190      824.473     -9.76364
 1191      824.814     -9.79091
 1192      825.155     -9.70909
 1193      825.496     -9.12727
 1194      825.837     -8.69091
 1195      826.178     -8.58182
 1196      826.519     -8.59091
 1197       826.86     -9.09091
 1198        827.2     -9.93636
 1199      827.541        -10.6
 1200      827.881     -10.9091
 1201      828.221     -10.6364
 1202      828.561     -9.71818
 1203      828.901     -9.61818
 1204      829.241     -10.5818
 1205      829.581     -11.0818
 1206       829.92     -11.4455
 1207       830.26     -11.8727
 1208      830.599     -11.3091
 1209      830.938     -10.4273
 1210      831.277     -10.1273
 1211      831.616     -9.89091
 1212      831.955     -9.95455
 1213      832.294     -10.7545
 1214      832.632     -11.2273
 1215      832.971     -11.3091
 1216      833.309          -12
 1217      833.647     -12.7455
 1218      833.986     -13.0091
 1219      834.324        -13.6
 1220      834.661     -14.3182
 1221      834.999     -14.8636
 1222      835.337        -15.6
 1223      835.674     -16.1818
 1224      836.012     -16.0182
 1225      836.349     -15.7545
 1226      836.686     -15.6545
 1227      837.023     -15.7091
 1228       837.36     -15.8182
 1229      837.697     -15.7455
 1230      838.034     -15.7909
 1231       838.37     -15.7455
 1232      838.707     -15.1273
 1233      839.043     -14.3909
 1234      839.379     -13.6455
 1235      839.715     -12.9455
 1236      840.051     -12.2364
 1237      840.387     -11.1182
 1238      840.723     -9.80909
 1239      841.058     -8.88182
 1240      841.394     -8.41818
 1241      841.729     -7.92727
 1242      842.064     -6.88182
 1243      842.399     -5.58182
 1244      842.734     -4.67273
 1245      843.069     -4.05455
 1246      843.404     -3.30909
 1247      843.739     -2.55455
 1248      844.073     -2.66364
 1249      844.408     -2.91818
 1250      844.742     -3.19091
 1251      845.076     -3.65455
 1252       845.41     -4.01818
 1253      845.744     -4.79091
 1254      846.078     -6.14545
 1255      846.411     -7.37273
 1256      846.745         -8.5
 1257      847.078     -9.91818
 1258      847.411     -11.5091
 1259      847.745        -12.5
 1260      848.078     -13.1091
 1261      848.411     -13.3727
 1262      848.743     -13.1364
 1263      849.076     -12.7182
 1264      849.409     -12.6091
 1265      849.741        -12.5
 1266      850.073     -12.0545
 1267      850.406     -11.9091
 1268      850.738     -12.1091
 1269       851.07     -12.1818
 1270      851.401     -12.1727
 1271      851.733     -12.3818
 1272      852.065        -12.6
 1273      852.396     -12.8818
 1274      852.727     -13.5091
 1275      853.059          -14
 1276       853.39        -14.1
 1277      853.721        -14.2
 1278      854.052     -14.1455
 1279      854.382     -14.1545
 1280      854.713        -14.5
 1281      855.043     -14.7818
 1282      855.374     -15.0273
 1283      855.704     -15.3364
 1284      856.034        -15.7
 1285      856.364     -16.1273
 1286      856.694     -16.7455
 1287      857.024        -16.9
 1288      857.353     -16.6455
 1289      857.683     -16.3727
 1290      858.012     -15.4545
 1291      858.341        -13.9
 1292      858.671     -12.7182
 1293          859     -11.7091
 1294      859.329     -10.3727
 1295      859.657     -9.40909
 1296      859.986     -8.73636
 1297      860.314     -8.21818
 1298      860.643         -8.1
 1299      860.971     -7.94545
 1300      861.299         -7.7
 1301      861.627         -7.9
 1302      861.955     -8.63636
 1303      862.283     -8.64545
 1304      862.611     -8.36364
 1305      862.938     -8.77273
 1306      863.266     -8.98182
 1307      863.593     -8.10909
 1308       863.92     -6.82727
 1309      864.247     -6.55455
 1310      864.574     -6.80909
 1311      864.901     -7.32727
 1312      865.228     -8.47273
 1313      865.554     -9.03636
 1314      865.881     -9.42727
 1315      866.207         -9.9
 1316      866.533     -10.1273
 1317      866.859     -10.1273
 1318      867.185     -10.6545
 1319      867.511     -11.7273
 1320      867.837     -12.5182
 1321      868.162     -13.1455
 1322      868.488     -13.2182
 1323      868.813     -12.9364
 1324      869.138     -12.9273
 1325      869.463     -13.2636
 1326      869.788        -13.9
 1327      870.113     -14.2545
 1328      870.438     -14.8455
 1329      870.762     -15.9364
 1330      871.087     -16.4091
 1331      871.411     -16.1909
 1332      871.735     -15.6182
 1333      872.059     -15.0545
 1334      872.383     -14.1182
 1335      872.707     -13.2364
 1336      873.031     -12.7545
 1337      873.354     -12.3364
 1338      873.678     -11.9455
 1339      874.001     -10.8909
 1340      874.324     -9.57273
 1341      874.647     -8.77273
 1342       874.97     -8.23636
 1343      875.293     -7.86364
 1344      875.616     -7.74545
 1345      875.939     -8.21818
 1346      876.261     -8.88182
 1347      876.583     -8.94545
 1348      876.906     -8.47273
 1349      877.228     -8.11818
 1350       877.55     -8.66364
 1351      877.872         -9.2
 1352      878.193     -9.32727
 1353      878.515     -9.07273
 1354      878.836     -8.81818
 1355      879.158     -8.95455
 1356      879.479     -9.14545
 1357        879.8     -9.67273
 1358      880.121          -10
 1359      880.442     -9.83636
 1360      880.763     -10.1091
 1361      881.083     -10.3091
 1362      881.404     -10.4636
 1363      881.724     -10.8727
 1364      882.044     -11.6818
 1365      882.364     -12.5818
 1366      882.684     -13.4909
 1367      883.004     -13.6818
 1368      883.324     -12.7364
 1369      883.644     -12.1455
 1370      883.963     -12.0364
 1371      884.282     -11.7091
 1372      884.602     -11.5909
 1373      884.921     -11.5818
 1374       885.24     -11.3364
 1375      885.559     -11.4091
 1376      885.877     -11.9273
 1377      886.196     -11.8909
 1378      886.514        -11.6
 1379      886.833     -11.5909
 1380      887.151     -11.5455
 1381      887.469        -11.7
 1382      887.787     -12.1182
 1383      888.105     -12.2545
 1384      888.423     -11.9818
 1385       888.74     -11.3909
 1386      889.058        -10.5
 1387      889.375     -9.72727
 1388      889.692     -9.06364
 1389       890.01     -8.65455
 1390      890.327     -8.56364
 1391      890.643     -8.74545
 1392       890.96     -8.99091
 1393      891.277     -8.62727
 1394      891.593     -7.85455
 1395       891.91     -7.42727
 1396      892.226     -7.42727
 1397      892.542     -7.57273
 1398      892.858     -7.38182
 1399      893.174     -7.11818
 1400      893.489     -7.15455
 1401      893.805         -7.1
 1402       894.12     -6.83636
 1403      894.436     -6.95455
 1404      894.751     -7.15455
 1405      895.066     -7.13636
 1406      895.381     -7.06364
 1407      895.696     -7.05455
 1408      896.011     -7.13636
 1409      896.325     -7.11818
 1410       896.64     -7.36364
 1411      896.954     -7.66364
 1412      897.268     -7.83636
 1413      897.582     -7.90909
 1414      897.896     -7.70909
 1415       898.21     -8.03636
 1416      898.524     -9.23636
 1417      898.837     -10.3091
 1418      899.151     -11.0636
 1419      899.464     -11.6818
 1420      899.777     -12.4636
 1421      900.091     -13.4091
 1422      900.403     -14.3182
 1423      900.716     -15.2455
 1424      901.029     -16.3818
 1425      901.342     -17.3364
 1426      901.654     -17.7636
 1427      901.966     -17.5909
 1428      902.279     -17.2182
 1429      902.591     -16.8091
 1430      902.903     -16.5636
 1431      903.214     -16.1455
 1432      903.526     -15.2455
 1433      903.838     -14.0091
 1434      904.149     -13.2182
 1435       904.46     -12.9545
 1436      904.771        -12.6
 1437      905.083     -12.4455
 1438      905.393     -12.2909
 1439      905.704     -11.8455
 1440      906.015        -11.6
 1441      906.325     -11.2636
 1442      906.636     -10.6727
 1443      906.946        -10.5
 1444      907.256     -10.6818
 1445      907.566     -10.7091
 1446      907.876     -10.7636
 1447      908.186     -11.2545
 1448      908.496     -11.1636
 1449      908.805     -10.4273
 1450      909.115     -9.90909
 1451      909.424         -9.5
 1452      909.733     -9.35455
 1453      910.042     -9.96364
 1454      910.351     -10.4818
 1455       910.66     -10.7364
 1456      910.968     -10.4909
 1457      911.277     -9.59091
 1458      911.585     -8.70909
 1459      911.893     -8.48182
 1460      912.202     -8.98182
 1461       912.51     -9.69091
 1462      912.817     -10.3091
 1463      913.125     -10.6636
 1464      913.433     -10.4364
 1465       913.74     -10.3364
 1466      914.048     -10.5909
 1467      914.355     -11.4636
 1468      914.662     -12.4909
 1469      914.969     -13.2818
 1470      915.276        -13.8
 1471      915.583     -14.4636
 1472      915.889     -15.0636
 1473      916.196     -14.8545
 1474      916.502     -14.6636
 1475      916.808     -14.8818
 1476      917.114     -14.9545
 1477       917.42     -14.9636
 1478      917.726     -14.5909
 1479      918.032     -14.2636
 1480      918.337     -13.9545
 1481      918.643     -13.9455
 1482      918.948     -14.0545
 1483      919.253     -14.2909
 1484      919.558     -15.1909
 1485      919.863     -15.9636
 1486      920.168     -16.4364
 1487      920.473     -16.7909
 1488      920.777     -17.0364
 1489      921.082     -17.3727
 1490      921.386     -17.3727
 1491       921.69     -17.2727
 1492      921.994     -16.9818
 1493      922.298     -16.2091
 1494      922.602     -15.6182
 1495      922.905     -15.0182
 1496      923.209     -14.1909
 1497      923.512     -13.6818
 1498      923.816     -13.3636
 1499      924.119     -12.8636
 1500      924.422     -12.1091
 1501      924.724     -11.5455
 1502      925.027     -11.0455
 1503       925.33     -10.6091
 1504      925.632     -10.3091
 1505      925.935     -9.71818
 1506      926.237     -9.43636
 1507      926.539     -9.69091
 1508      926.841     -9.98182
 1509      927.143     -10.0818
 1510      927.445     -9.78182
 1511      927.746     -9.52727
 1512      928.048     -9.75455
 1513      928.349     -10.1273
 1514       928.65     -10.7182
 1515      928.951     -11.6182
 1516      929.252     -12.6545
 1517      929.553     -13.6364
 1518      929.854        -14.5
 1519      930.154     -14.8273
 1520      930.454     -15.0273
 1521      930.755     -16.0818
 1522      931.055     -17.1727
 1523      931.355     -17.6909
 1524      931.655     -18.0909
 1525      931.955     -18.0273
 1526      932.254        -17.8
 1527      932.554     -17.9364
 1528      932.853     -17.6909
 1529      933.152     -17.0545
 1530      933.452     -16.7182
 1531      933.751     -16.4818
 1532      934.049     -15.9455
 1533      934.348     -15.4909
 1534      934.647     -15.1636
 1535      934.945     -15.0818
 1536      935.244     -15.3455
 1537      935.542     -15.2727
 1538       935.84     -14.6182
 1539      936.138     -13.8909
 1540      936.436     -13.3909
 1541      936.733     -13.1727
 1542      937.031     -13.0091
 1543      937.328     -12.8091
 1544      937.626     -12.5182
 1545      937.923     -12.0636
 1546       938.22        -11.3
 1547      938.517     -10.1636
 1548      938.814     -9.46364
 1549       939.11     -9.43636
 1550      939.407     -9.63636
 1551      939.703     -9.34545
 1552      939.999     -8.51818
 1553      940.295     -7.66364
 1554      940.591     -6.80909
 1555      940.887     -6.52727
 1556      941.183     -6.77273
 1557      941.479         -7.3
 1558      941.774     -8.39091
 1559       942.07     -9.34545
 1560      942.365     -9.97273
 1561       942.66     -10.6091
 1562      942.955        -11.3
 1563       943.25     -12.0364
 1564      943.544     -12.7636
 1565      943.839     -13.3727
 1566      944.133     -14.2455
 1567      944.428     -15.1091
 1568      944.722     -15.3455
 1569      945.016     -14.9636
 1570       945.31        -14.7
 1571      945.604     -14.7273
 1572      945.897     -14.8091
 1573      946.191     -14.9727
 1574      946.484     -14.8909
 1575      946.777     -14.3727
 1576       947.07     -13.8909
 1577      947.363     -13.2818
 1578      947.656     -12.7636
 1579      947.949     -12.5636
 1580      948.242     -12.6909
 1581      948.534     -12.7545
 1582      948.826     -12.3091
 1583      949.119     -12.1091
 1584      949.411     -12.1364
 1585      949.703     -12.1182
 1586      949.995     -12.4909
 1587      950.286     -13.2909
 1588      950.578     -13.6818
 1589      950.869     -13.5182
 1590       951.16     -13.4182
 1591      951.452     -13.5909
 1592      951.743     -13.6455
 1593      952.034     -13.3909
 1594      952.324     -12.6182
 1595      952.615     -11.6273
 1596      952.905     -10.8636
 1597      953.196     -10.6636
 1598      953.486        -10.7
 1599      953.776        -10.6
 1600      954.066     -10.4636
 1601      954.356     -10.3636
 1602      954.646     -9.38182
 1603      954.935     -8.15455
 1604      955.225     -7.95455
 1605      955.514     -8.57273
 1606      955.803     -9.62727
 1607      956.092     -10.7909
 1608      956.381     -11.1636
 1609       956.67        -10.7
 1610      956.959     -10.2455
 1611      957.247     -10.2182
 1612      957.536     -10.3818
 1613      957.824     -11.0818
 1614      958.112     -11.6727
 1615        958.4     -11.8182
 1616      958.688     -11.8818
 1617      958.976     -11.8545
 1618      959.263     -11.6364
 1619      959.551     -11.7182
 1620      959.838     -12.5455
 1621      960.125     -14.0182
 1622      960.412     -15.6909
 1623      960.699        -16.9
 1624      960.986     -18.0182
 1625      961.273     -18.9455
 1626      961.559     -19.0273
 1627      961.846     -18.6273
 1628      962.132     -18.3818
 1629      962.418     -18.1636
 1630      962.704     -17.9636
 1631       962.99     -17.3818
 1632      963.276        -16.5
 1633      963.561     -15.3909
 1634      963.847        -14.5
 1635      964.132     -13.9727
 1636      964.417     -14.0182
 1637      964.702     -14.3455
 1638      964.987     -14.3727
 1639      965.272     -14.3091
 1640      965.557     -14.9636
 1641      965.841     -15.5636
 1642      966.126     -15.2818
 1643       966.41     -14.5091
 1644      966.694     -13.6455
 1645      966.978     -12.9636
 1646      967.262     -12.0909
 1647      967.546     -11.0273
 1648      967.829     -10.5636
 1649      968.113     -10.4091
 1650      968.396     -9.55455
 1651      968.679     -8.10909
 1652      968.963     -7.07273
 1653      969.245     -6.64545
 1654      969.528         -6.6
 1655      969.811         -6.6
 1656      970.094     -5.88182
 1657      970.376     -5.02727
 1658      970.658           -5
 1659       970.94     -4.49091
 1660      971.222     -3.73636
 1661      971.504     -3.89091
 1662      971.786     -4.93636
 1663      972.068     -6.20909
 1664      972.349     -7.99091
 1665       972.63     -9.67273
 1666      972.912     -10.5818
 1667      973.193     -11.5909
 1668      973.474     -13.1182
 1669      973.755     -14.3909
 1670      974.035     -16.1091
 1671      974.316     -18.2727
 1672      974.596     -20.1364
 1673      974.876     -20.9182
 1674      975.157     -20.6909
 1675      975.437     -20.1545
 1676      975.716     -19.9182
 1677      975.996     -20.3182
 1678      976.276     -21.2364
 1679      976.555     -21.4182
 1680      976.835     -20.9909
 1681      977.114     -20.0364
 1682      977.393        -18.6
 1683      977.672     -17.3091
 1684      977.951     -16.8273
 1685      978.229     -17.2909
 1686      978.508     -17.6182
 1687      978.786     -16.7545
 1688      979.065        -15.4
 1689      979.343     -14.1727
 1690      979.621     -13.3364
 1691      979.898     -12.1273
 1692      980.176     -11.3455
 1693      980.454     -11.4182
 1694      980.731     -11.1636
 1695      981.009     -10.5636
 1696      981.286     -9.49091
 1697      981.563     -8.71818
 1698       981.84     -9.11818
 1699      982.117        -10.1
 1700      982.393     -10.3818
 1701       982.67     -10.4364
 1702      982.946     -11.4091
 1703      983.222     -12.3545
 1704      983.498     -12.8364
 1705      983.774     -13.7182
 1706       984.05     -14.5545
 1707      984.326     -15.4091
 1708      984.602     -16.0273
 1709      984.877     -16.2909
 1710      985.152        -16.3
 1711      985.427     -16.5182
 1712      985.703     -16.4909
 1713      985.977     -16.1091
 1714      986.252     -16.1636
 1715      986.527     -16.1636
 1716      986.801     -15.5091
 1717      987.076     -14.5818
 1718       987.35     -13.6364
 1719      987.624     -12.8727
 1720      987.898     -12.6545
 1721      988.172     -12.9182
 1722      988.445     -13.1364
 1723      988.719     -13.7636
 1724      988.992     -14.8091
 1725      989.266     -15.4909
 1726      989.539     -16.2364
 1727      989.812     -17.0818
 1728      990.085     -17.9545
 1729      990.357     -18.8455
 1730       990.63        -19.6
 1731      990.902        -19.8
 1732      991.175     -19.3727
 1733      991.447     -19.0455
 1734      991.719     -18.5364
 1735      991.991     -17.4091
 1736      992.263     -16.2909
 1737      992.534     -15.0364
 1738      992.806     -14.1455
 1739      993.077     -13.7545
 1740      993.348     -13.5091
 1741       993.62     -13.4909
 1742      993.891     -13.3636
 1743      994.161        -13.3
 1744      994.432     -13.2636
 1745      994.703     -13.0727
 1746      994.973     -13.3091
 1747      995.243     -13.4818
 1748      995.513     -13.5091
 1749      995.784     -13.6182
 1750      996.053     -13.6727
 1751      996.323     -13.8455
 1752      996.593     -13.5818
 1753      996.862     -13.1727
 1754      997.132     -12.7182
 1755      997.401     -12.1818
 1756       997.67     -12.1455
 1757      997.939     -12.2636
 1758      998.208     -12.6455
 1759      998.476     -13.4636
 1760      998.745     -13.9636
 1761      999.013     -14.0182
 1762      999.281     -13.6182
 1763      999.549     -13.1545
 1764      999.817     -13.3636
 1765      1000.09     -14.0818
 1766      1000.35     -14.9273
 1767      1000.62     -15.5636
 1768      1000.89        -15.5
 1769      1001.16     -15.0818
 1770      1001.42     -14.6091
 1771      1001.69     -14.6091
 1772      1001.96     -14.8818
 1773      1002.22     -15.1727
 1774      1002.49     -15.9455
 1775      1002.76     -16.7091
 1776      1003.02     -17.1818
 1777      1003.29     -17.5818
 1778      1003.55     -17.8364
 1779      1003.82     -18.7636
 1780      1004.09     -19.6818
 1781      1004.35          -20
 1782      1004.62        -19.7
 1783      1004.88     -19.1909
 1784      1005.15     -19.0909
 1785      1005.41        -18.4
 1786      1005.68     -17.2636
 1787      1005.94     -16.3818
 1788      1006.21     -15.3636
 1789      1006.47     -14.5727
 1790      1006.74     -14.0182
 1791         1007     -13.8273
 1792      1007.26     -13.4909
 1793      1007.53     -12.9727
 1794      1007.79     -12.8364
 1795      1008.06     -12.6545
 1796      1008.32        -12.8
 1797      1008.58     -13.0727
 1798      1008.85     -12.7182
 1799      1009.11          -12
 1800      1009.37     -11.5455
 1801      1009.64        -11.2
 1802       1009.9     -10.2727
 1803      1010.16     -9.33636
 1804      1010.42     -8.79091
 1805      1010.69     -8.11818
 1806      1010.95     -7.26364
 1807      1011.21     -6.84545
 1808      1011.47         -6.4
 1809      1011.73     -6.65455
 1810         1012     -7.60909
 1811      1012.26     -7.70909
 1812      1012.52     -7.30909
 1813      1012.78     -7.41818
 1814      1013.04     -7.85455
 1815       1013.3         -8.2
 1816      1013.56     -8.51818
 1817      1013.82     -9.07273
 1818      1014.08     -9.51818
 1819      1014.34     -9.87273
 1820       1014.6     -9.72727
 1821      1014.86     -9.97273
 1822      1015.12     -11.3273
 1823      1015.38     -12.8909
 1824      1015.64     -13.9182
 1825       1015.9     -14.7091
 1826      1016.16     -15.2636
 1827      1016.42        -15.6
 1828      1016.68     -15.8636
 1829      1016.94     -15.8273
 1830       1017.2     -15.6636
 1831      1017.46     -15.8273
 1832      1017.72     -16.1455
 1833      1017.98     -16.0909
 1834      1018.23     -15.2091
 1835      1018.49     -14.0909
 1836      1018.75     -13.6636
 1837      1019.01     -13.7636
 1838      1019.27     -13.9273
 1839      1019.52     -14.0364
 1840      1019.78     -14.1545
 1841      1020.04     -14.6182
 1842       1020.3     -15.0091
 1843      1020.55     -14.6364
 1844      1020.81     -13.7091
 1845      1021.07     -12.8727
 1846      1021.32     -12.7273
 1847      1021.58     -12.6545
 1848      1021.84     -12.0727
 1849      1022.09     -11.4364
 1850      1022.35     -10.9182
 1851       1022.6     -10.8909
 1852      1022.86     -10.9545
 1853      1023.12     -10.5091
 1854      1023.37     -10.2545
 1855      1023.63     -10.2091
 1856      1023.88     -10.1727
 1857      1024.14     -10.1273
 1858      1024.39     -10.2364
 1859      1024.65     -10.8091
 1860       1024.9     -11.5182
 1861      1025.16     -12.0273
 1862      1025.41     -11.7273
 1863      1025.67     -11.1182
 1864      1025.92     -10.7636
 1865      1026.17     -10.1545
 1866      1026.43     -9.98182
 1867      1026.68     -10.9182
 1868      1026.93     -12.1636
 1869      1027.19     -12.8909
 1870      1027.44     -13.0727
 1871      1027.69     -12.6545
 1872      1027.95     -12.3545
 1873       1028.2        -12.6
 1874      1028.45     -13.3273
 1875      1028.71     -14.5909
 1876      1028.96     -15.9818
 1877      1029.21     -16.6818
 1878      1029.46     -16.7636
 1879      1029.71     -16.9182
 1880      1029.97     -17.3455
 1881      1030.22     -17.7818
 1882      1030.47     -18.3909
 1883      1030.72     -18.9273
 1884      1030.97     -19.3364
 1885      1031.22     -19.3273
 1886      1031.48        -18.7
 1887      1031.73     -17.6364
 1888      1031.98        -16.9
 1889      1032.23     -16.4545
 1890      1032.48     -15.6909
 1891      1032.73     -14.7909
 1892      1032.98     -14.2727
 1893      1033.23     -14.0182
 1894      1033.48     -13.4364
 1895      1033.73     -12.7273
 1896      1033.98     -11.5818
 1897      1034.23     -10.8545
 1898      1034.48     -11.2727
 1899      1034.73     -11.6727
 1900      1034.98     -11.5818
 1901      1035.22     -11.1727
 1902      1035.47     -10.4545
 1903      1035.72     -9.74545
 1904      1035.97     -9.42727
 1905      1036.22         -9.6
 1906      1036.47         -9.8
 1907      1036.72     -10.0273
 1908      1036.96     -10.1273
 1909      1037.21     -9.50909
 1910      1037.46     -8.80909
 1911      1037.71     -8.45455
 1912      1037.95     -8.52727
 1913       1038.2     -8.70909
 1914      1038.45     -8.71818
 1915       1038.7     -8.48182
 1916      1038.94     -8.13636
 1917      1039.19     -8.04545
 1918      1039.44     -7.81818
 1919      1039.68     -7.44545
 1920      1039.93     -7.59091
 1921      1040.17     -7.74545
 1922      1040.42     -7.43636
 1923      1040.67     -6.77273
 1924      1040.91     -6.26364
 1925      1041.16     -6.25455
 1926       1041.4     -6.22727
 1927      1041.65     -6.44545
 1928      1041.89     -6.92727
 1929      1042.14     -8.04545
 1930      1042.38     -9.55455
 1931      1042.63     -10.5636
 1932      1042.87     -11.2364
 1933      1043.12     -12.1455
 1934      1043.36     -13.1455
 1935      1043.61     -13.7273
 1936      1043.85     -13.5909
 1937      1044.09     -13.3818
 1938      1044.34     -12.8545
 1939      1044.58     -12.1182
 1940      1044.82     -11.8545
 1941      1045.07     -11.8364
 1942      1045.31     -11.5818
 1943      1045.55     -11.5636
 1944       1045.8     -11.7182
 1945      1046.04        -11.5
 1946      1046.28     -11.3636
 1947      1046.53     -11.5364
 1948      1046.77     -11.2636
 1949      1047.01     -10.3182
 1950      1047.25     -9.26364
 1951      1047.49     -7.53636
 1952      1047.74     -5.39091
 1953      1047.98     -3.73636
 1954      1048.22     -2.27273
 1955      1048.46         -0.9
 1956       1048.7   -0.0454545
 1957      1048.94     0.590909
 1958      1049.18     0.990909
 1959      1049.42     0.818182
 1960      1049.66     0.145455
 1961       1049.9    -0.381818
 1962      1050.15     -1.17273
 1963      1050.39     -2.22727
 1964      1050.63     -3.35455
 1965      1050.87     -4.26364
 1966      1051.11     -4.72727
 1967      1051.34     -5.15455
 1968      1051.58     -5.72727
 1969      1051.82     -5.79091
 1970      1052.06     -5.66364
 1971       1052.3     -6.02727
 1972      1052.54     -6.71818
 1973      1052.78     -7.44545
 1974      1053.02     -8.15455
 1975      1053.26     -8.79091
 1976      1053.49     -9.60909
 1977      1053.73     -10.2091
 1978      1053.97     -10.3364
 1979      1054.21     -10.9364
 1980      1054.45     -12.2273
 1981      1054.68     -13.1364
 1982      1054.92     -13.3273
 1983      1055.16     -13.2273
 1984       1055.4     -12.4455
 1985      1055.63     -11.2818
 1986      1055.87     -10.4364
 1987      1056.11     -9.91818
 1988      1056.34     -9.95455
 1989      1056.58     -9.97273
 1990      1056.82     -9.68182
 1991      1057.05     -9.60909
 1992      1057.29     -9.95455
 1993      1057.52     -10.6182
 1994      1057.76     -11.3455
 1995         1058     -12.0545
 1996      1058.23     -12.5909
 1997      1058.47        -12.9
 1998       1058.7     -13.1364
 1999      1058.94     -13.4636
 2000      1059.17     -12.9091
 2001      1059.41     -11.2182
 2002      1059.64     -9.51818
 2003      1059.88           -8
 2004      1060.11     -6.47273
 2005      1060.34     -5.11818
 2006      1060.58     -4.90909
 2007      1060.81     -5.03636
 2008      1061.05         -4.9
 2009      1061.28     -4.96364
 2010      1061.51     -4.67273
 2011      1061.75     -5.21818
 2012      1061.98     -6.34545
 2013      1062.21     -7.15455
 2014      1062.45     -8.10909
 2015      1062.68     -9.12727
 2016      1062.91     -9.83636
 2017      1063.14     -9.79091
 2018      1063.38     -9.29091
 2019      1063.61     -8.34545
 2020      1063.84     -7.06364
 2021      1064.07     -6.25455
 2022       1064.3     -5.62727
 2023      1064.53         -4.8
 2024      1064.77     -3.76364
 2025         1065     -3.23636
 2026      1065.23     -3.09091
 2027      1065.46         -3.1
 2028      1065.69     -3.57273
 2029      1065.92     -4.71818
 2030      1066.15     -5.93636
 2031      1066.38     -6.70909
 2032      1066.61     -6.93636
 2033      1066.84     -6.77273
 2034      1067.07     -6.95455
 2035       1067.3     -7.52727
 2036      1067.53     -7.37273
 2037      1067.76     -6.34545
 2038      1067.99     -4.71818
 2039      1068.22     -2.90909
 2040      1068.45     -1.06364
 2041      1068.68     0.445455
 2042      1068.91      1.67273
 2043      1069.14         2.43
 2044      1069.36      2.68889
 2045      1069.59       2.8375
 2046      1069.82      3.64286
 2047      1070.05         4.75
